w_m/MHz,P_S/dBm,s_Ps/dBm,P_R/dBm,s_Pr/dBm,P_V/dBm,s_Pv/dBm
50,-30,3,-80,3,50,4
200,-30,3,-80,3,50,4
400,-23,3,-80,3,57,4
600,-20,3,-77,3,57,4
800,-21,3,-77,3,56,4
1000,-20,3,-77,3,57,4
1200,-19,3,-77,3,58,4
1350,-18,3,-77,3,59,4
